Folder: cs8630-A/data

Note: README.md
# cs8630-A
Introduction to Visualization Tech

Just used my research data do a visualization task.

File: 0.3.txt
"Summary"
"[Software Information]"
"Software Name:","LabSolutions RF"
"Version:","1.11"
"[Data Information]"
"Data is:","Modified"
"Sample Name:","SampleName462"
"Sample ID:","SampleID462"
"Option:","Option462"
"Analyst:","BaTiO2:S"
"Date/Time:","01/27/2024 05:59:21 PM"
"Comments"
"[Instrument Information]"
"Instrument Name:","RF-6000"
"Instrument Type:","RF-6000 Series"
"Model (S/N):","RF-6000 (A40245400537SA)"

"Parameter"
"[Measurement]"
"Spectrum Type:","Emission"
"EX Wavelength:","360.0 nm"
"EM Wavelength Start:","410.0 nm"
"EM Wavelength End:","690.0 nm"
"Data Interval:","2.0 nm"
"Scan Speed:","600 nm/min"
"[Instrument]"
"EX Bandwidth:","5.0 nm"
"EM Bandwidth:","5.0 nm"
"Sensitivity:","Auto"
"[Attachment]"
"Attachment:","None"
"[Auto Print]"
"Auto Print:","No"
"Report File:",""

"AutoFile_20240127_175832 - CorrectionData"
"Wavelength nm.","Intensity"
410.0,1755.668
412.0,1750.233
414.0,1788.078
416.0,1840.204
418.0,1892.963
420.0,1952.579
422.0,2071.466
424.0,2200.108
426.0,2351.009
428.0,2547.460
430.0,2766.112
432.0,3002.903
434.0,3291.824
436.0,3621.617
438.0,4005.240
440.0,4483.122
442.0,4959.654
444.0,5519.134
446.0,6220.618
448.0,6924.848
450.0,7690.155
452.0,8630.638
454.0,9620.210
456.0,10630.825
458.0,11889.444
460.0,13258.712
462.0,14570.769
464.0,16203.972
466.0,17860.422
468.0,19559.089
470.0,21479.466
472.0,23480.041
474.0,25465.258
476.0,27746.505
478.0,30028.598
480.0,32254.008
482.0,34653.661
484.0,37216.677
486.0,39476.362
488.0,42063.851
490.0,44689.184
492.0,46964.824
494.0,49441.320
496.0,51881.815
498.0,54243.207
500.0,56346.594
502.0,58965.028
504.0,60928.135
506.0,62937.329
508.0,64838.499
510.0,66560.435
512.0,68335.118
514.0,69841.592
516.0,71137.918
518.0,72322.911
520.0,73272.964
522.0,74065.132
524.0,74771.440
526.0,75168.821
528.0,75379.076
530.0,75531.541
532.0,75508.626
534.0,75028.438
536.0,74815.968
538.0,74080.734
540.0,73262.855
542.0,72582.670
544.0,71415.004
546.0,70198.241
548.0,69089.631
550.0,67668.469
552.0,66195.936
554.0,64763.388
556.0,63181.647
558.0,61345.705
560.0,59611.880
562.0,57966.413
564.0,56082.557
566.0,54278.605
568.0,52431.628
570.0,50566.471
572.0,48535.166
574.0,46916.681
576.0,44979.002
578.0,42967.194
580.0,41268.730
582.0,39543.856
584.0,37629.102
586.0,35985.210
588.0,34371.264
590.0,32552.404
592.0,30828.724
594.0,29451.198
596.0,27836.355
598.0,26258.130
600.0,24823.976
602.0,23501.730
604.0,22046.771
606.0,20861.959
608.0,19654.947
610.0,18522.416
612.0,17331.080
614.0,16441.524
616.0,15498.157
618.0,14526.320
620.0,13895.554
622.0,13049.518
624.0,12345.875
626.0,11616.254
628.0,10986.128
630.0,10264.297
632.0,9578.953
634.0,8996.186
636.0,8375.578
638.0,7846.164
640.0,7337.540
642.0,6839.028
644.0,6396.673
646.0,6002.043
648.0,5646.270
650.0,5281.353
652.0,4940.367
654.0,4633.350
656.0,4300.586
658.0,4044.203
660.0,3767.605
662.0,3566.318
664.0,3357.047
666.0,3153.365
668.0,3049.962
670.0,2906.603
672.0,2779.621
674.0,2816.963
676.0,2783.598
678.0,2781.456
680.0,2808.576
682.0,2842.612
684.0,2936.532
686.0,2996.475
688.0,3115.326
690.0,3278.705

File: 0.4.txt
"Summary"
"[Software Information]"
"Software Name:","LabSolutions RF"
"Version:","1.11"
"[Data Information]"
"Data is:","Modified"
"Sample Name:","SampleName381"
"Sample ID:","SampleID381"
"Option:","Option381"
"Analyst:","BaTiO2:S"
"Date/Time:","01/03/2024 01:06:01 PM"
"Comments"
"[Instrument Information]"
"Instrument Name:","RF-6000"
"Instrument Type:","RF-6000 Series"
"Model (S/N):","RF-6000 (A40245400537SA)"

"Parameter"
"[Measurement]"
"Spectrum Type:","Emission"
"EX Wavelength:","360.0 nm"
"EM Wavelength Start:","410.0 nm"
"EM Wavelength End:","670.0 nm"
"Data Interval:","2.0 nm"
"Scan Speed:","600 nm/min"
"[Instrument]"
"EX Bandwidth:","5.0 nm"
"EM Bandwidth:","5.0 nm"
"Sensitivity:","Auto"
"[Attachment]"
"Attachment:","None"
"[Auto Print]"
"Auto Print:","No"
"Report File:",""

"AutoFile_20240103_130525 - CorrectionData"
"Wavelength nm.","Intensity"
410.0,4062.230
412.0,3994.853
414.0,3971.223
416.0,3937.134
418.0,3949.014
420.0,3970.026
422.0,4021.910
424.0,4114.935
426.0,4195.929
428.0,4347.857
430.0,4520.656
432.0,4707.425
434.0,4983.500
436.0,5284.028
438.0,5631.122
440.0,6039.395
442.0,6506.861
444.0,7035.905
446.0,7729.258
448.0,8460.522
450.0,9211.776
452.0,10177.640
454.0,11198.932
456.0,12288.847
458.0,13560.426
460.0,14980.234
462.0,16396.874
464.0,18078.628
466.0,19784.130
468.0,21455.749
470.0,23370.899
472.0,25335.566
474.0,27183.658
476.0,29448.860
478.0,31484.633
480.0,33587.562
482.0,35711.093
484.0,37829.342
486.0,39754.707
488.0,41868.245
490.0,43863.759
492.0,45646.029
494.0,47396.232
496.0,49089.628
498.0,50624.987
500.0,52135.762
502.0,53524.516
504.0,54680.278
506.0,55884.576
508.0,56810.810
510.0,57548.393
512.0,58402.855
514.0,58960.100
516.0,59455.618
518.0,59750.886
520.0,59855.437
522.0,59791.882
524.0,59663.433
526.0,59427.865
528.0,59238.356
530.0,58723.807
532.0,57988.788
534.0,57264.901
536.0,56687.165
538.0,55756.255
540.0,54859.066
542.0,54063.646
544.0,52848.372
546.0,51426.628
548.0,50321.680
550.0,49168.065
552.0,47720.019
554.0,46541.881
556.0,45245.458
558.0,43708.963
560.0,42401.420
562.0,41085.953
564.0,39610.919
566.0,38304.473
568.0,36921.657
570.0,35554.264
572.0,34025.801
574.0,32840.778
576.0,31589.791
578.0,30320.357
580.0,29018.541
582.0,27877.448
584.0,26480.705
586.0,25326.944
588.0,24277.288
590.0,23139.167
592.0,21936.158
594.0,20973.242
596.0,20021.868
598.0,18900.143
600.0,18000.234
602.0,17138.417
604.0,16210.624
606.0,15403.282
608.0,14658.805
610.0,13873.812
612.0,13186.318
614.0,12565.083
616.0,11983.979
618.0,11437.373
620.0,11043.111
622.0,10608.106
624.0,10103.937
626.0,9700.604
628.0,9267.617
630.0,8835.012
632.0,8352.549
634.0,8004.325
636.0,7617.486
638.0,7252.555
640.0,6942.928
642.0,6613.850
644.0,6313.873
646.0,6094.719
648.0,5853.165
650.0,5663.021
652.0,5440.557
654.0,5188.636
656.0,5034.451
658.0,4804.232
660.0,4706.203
662.0,4576.815
664.0,4514.865
666.0,4439.319
668.0,4359.636
670.0,4433.821

File: 0.6.txt
"Summary"
"[Software Information]"
"Software Name:","LabSolutions RF"
"Version:","1.11"
"[Data Information]"
"Data is:","Modified"
"Sample Name:","SampleName408"
"Sample ID:","SampleID408"
"Option:","Option408"
"Analyst:","BaTiO2:S"
"Date/Time:","01/06/2024 07:17:20 PM"
"Comments"
"[Instrument Information]"
"Instrument Name:","RF-6000"
"Instrument Type:","RF-6000 Series"
"Model (S/N):","RF-6000 (A40245400537SA)"

"Parameter"
"[Measurement]"
"Spectrum Type:","Emission"
"EX Wavelength:","360.0 nm"
"EM Wavelength Start:","410.0 nm"
"EM Wavelength End:","670.0 nm"
"Data Interval:","2.0 nm"
"Scan Speed:","600 nm/min"
"[Instrument]"
"EX Bandwidth:","5.0 nm"
"EM Bandwidth:","5.0 nm"
"Sensitivity:","Auto"
"[Attachment]"
"Attachment:","None"
"[Auto Print]"
"Auto Print:","No"
"Report File:",""

"AutoFile_20240106_191645 - CorrectionData"
"Wavelength nm.","Intensity"
410.0,4383.970
412.0,4316.500
414.0,4274.124
416.0,4265.443
418.0,4263.346
420.0,4282.352
422.0,4336.225
424.0,4413.377
426.0,4507.268
428.0,4667.645
430.0,4832.810
432.0,5021.384
434.0,5295.840
436.0,5599.597
438.0,5982.172
440.0,6376.086
442.0,6869.997
444.0,7435.262
446.0,8153.647
448.0,8872.979
450.0,9713.606
452.0,10736.786
454.0,11763.546
456.0,12902.314
458.0,14309.596
460.0,15769.355
462.0,17268.290
464.0,19136.224
466.0,20889.006
468.0,22822.562
470.0,24864.185
472.0,26979.287
474.0,29043.258
476.0,31629.938
478.0,33936.242
480.0,36275.774
482.0,38768.192
484.0,41137.452
486.0,43369.918
488.0,45863.317
490.0,48299.625
492.0,50294.119
494.0,52280.710
496.0,54383.847
498.0,56346.480
500.0,58048.824
502.0,59670.021
504.0,61268.954
506.0,62504.269
508.0,63832.229
510.0,65026.525
512.0,65841.908
514.0,66506.585
516.0,67149.055
518.0,67609.305
520.0,67780.457
522.0,67920.793
524.0,67849.477
526.0,67547.836
528.0,67141.908
530.0,66686.879
532.0,66103.115
534.0,65237.918
536.0,64381.616
538.0,63364.452
540.0,62450.318
542.0,61454.372
544.0,60123.532
546.0,58636.211
548.0,57539.409
550.0,56066.421
552.0,54539.678
554.0,53173.092
556.0,51517.744
558.0,49924.193
560.0,48479.795
562.0,46957.003
564.0,45224.549
566.0,43794.870
568.0,42143.054
570.0,40473.289
572.0,38966.478
574.0,37525.086
576.0,36016.103
578.0,34438.766
580.0,33091.511
582.0,31758.335
584.0,30176.573
586.0,28871.643
588.0,27651.959
590.0,26366.973
592.0,24970.443
594.0,23912.591
596.0,22660.688
598.0,21400.414
600.0,20427.557
602.0,19408.246
604.0,18320.999
606.0,17475.665
608.0,16662.851
610.0,15710.784
612.0,14913.686
614.0,14223.587
616.0,13553.619
618.0,12877.999
620.0,12432.751
622.0,11894.037
624.0,11405.717
626.0,10882.576
628.0,10435.386
630.0,9905.864
632.0,9420.124
634.0,8963.962
636.0,8478.043
638.0,8075.910
640.0,7671.015
642.0,7357.769
644.0,7062.325
646.0,6733.617
648.0,6487.409
650.0,6243.779
652.0,6009.740
654.0,5821.193
656.0,5559.718
658.0,5348.331
660.0,5223.828
662.0,5094.574
664.0,4966.956
666.0,4896.717
668.0,4866.986
670.0,4909.619

File: 0.8.txt
"Summary"
"[Software Information]"
"Software Name:","LabSolutions RF"
"Version:","1.11"
"[Data Information]"
"Data is:","Modified"
"Sample Name:","SampleName406"
"Sample ID:","SampleID406"
"Option:","Option406"
"Analyst:","BaTiO2:S"
"Date/Time:","01/06/2024 07:07:14 PM"
"Comments"
"[Instrument Information]"
"Instrument Name:","RF-6000"
"Instrument Type:","RF-6000 Series"
"Model (S/N):","RF-6000 (A40245400537SA)"

"Parameter"
"[Measurement]"
"Spectrum Type:","Emission"
"EX Wavelength:","360.0 nm"
"EM Wavelength Start:","410.0 nm"
"EM Wavelength End:","670.0 nm"
"Data Interval:","2.0 nm"
"Scan Speed:","600 nm/min"
"[Instrument]"
"EX Bandwidth:","5.0 nm"
"EM Bandwidth:","5.0 nm"
"Sensitivity:","Auto"
"[Attachment]"
"Attachment:","None"
"[Auto Print]"
"Auto Print:","No"
"Report File:",""

"AutoFile_20240106_190638 - CorrectionData"
"Wavelength nm.","Intensity"
410.0,5695.568
412.0,5675.795
414.0,5637.144
416.0,5664.387
418.0,5708.313
420.0,5798.810
422.0,5925.221
424.0,6113.116
426.0,6326.997
428.0,6664.479
430.0,7036.272
432.0,7410.648
434.0,7929.801
436.0,8502.722
438.0,9182.709
440.0,10037.640
442.0,10929.124
444.0,11906.623
446.0,13295.804
448.0,14659.264
450.0,16093.411
452.0,17954.644
454.0,19843.007
456.0,21865.863
458.0,24372.568
460.0,26988.638
462.0,29729.441
464.0,32942.013
466.0,36219.575
468.0,39541.392
470.0,43168.397
472.0,46916.089
474.0,50631.221
476.0,55073.139
478.0,59137.563
480.0,63033.819
482.0,67349.639
484.0,71399.345
486.0,75260.356
488.0,79356.806
490.0,83512.086
492.0,86948.066
494.0,90389.436
496.0,93804.752
498.0,96966.589
500.0,99941.883
502.0,102865.033
504.0,105290.849
506.0,107613.282
508.0,109608.188
510.0,111328.154
512.0,113044.865
514.0,114223.982
516.0,115022.353
518.0,115849.509
520.0,116105.809
522.0,116056.733
524.0,116162.575
526.0,115531.223
528.0,114787.020
530.0,114237.006
532.0,112811.225
534.0,111353.896
536.0,109958.877
538.0,108302.022
540.0,106481.281
542.0,104870.836
544.0,102588.598
546.0,100045.129
548.0,97795.242
550.0,95336.719
552.0,92687.414
554.0,90297.791
556.0,87608.327
558.0,84814.565
560.0,82035.650
562.0,79741.615
564.0,76797.320
566.0,74143.422
568.0,71467.867
570.0,68565.972
572.0,65811.330
574.0,63383.601
576.0,60800.612
578.0,58021.256
580.0,55751.197
582.0,53562.826
584.0,50779.785
586.0,48505.377
588.0,46459.164
590.0,44106.474
592.0,41803.977
594.0,39916.763
596.0,37841.242
598.0,35758.032
600.0,33997.435
602.0,32254.896
604.0,30422.651
606.0,28886.491
608.0,27429.805
610.0,25881.379
612.0,24436.947
614.0,23336.504
616.0,22146.543
618.0,21034.907
620.0,20134.703
622.0,19188.305
624.0,18266.013
626.0,17474.998
628.0,16622.702
630.0,15722.768
632.0,14855.738
634.0,14074.991
636.0,13339.121
638.0,12580.699
640.0,11987.726
642.0,11344.112
644.0,10855.883
646.0,10272.915
648.0,9859.543
650.0,9404.822
652.0,8892.773
654.0,8618.386
656.0,8210.016
658.0,7836.893
660.0,7492.365
662.0,7297.545
664.0,7114.233
666.0,6930.636
668.0,6817.098
670.0,6798.659

File: 1.0.txt
"Summary"
"[Software Information]"
"Software Name:","LabSolutions RF"
"Version:","1.11"
"[Data Information]"
"Data is:","Modified"
"Sample Name:","SampleName402"
"Sample ID:","SampleID402"
"Option:","Option402"
"Analyst:","BaTiO2:S"
"Date/Time:","01/06/2024 06:49:56 PM"
"Comments"
"[Instrument Information]"
"Instrument Name:","RF-6000"
"Instrument Type:","RF-6000 Series"
"Model (S/N):","RF-6000 (A40245400537SA)"

"Parameter"
"[Measurement]"
"Spectrum Type:","Emission"
"EX Wavelength:","360.0 nm"
"EM Wavelength Start:","410.0 nm"
"EM Wavelength End:","670.0 nm"
"Data Interval:","2.0 nm"
"Scan Speed:","600 nm/min"
"[Instrument]"
"EX Bandwidth:","5.0 nm"
"EM Bandwidth:","5.0 nm"
"Sensitivity:","Auto"
"[Attachment]"
"Attachment:","None"
"[Auto Print]"
"Auto Print:","No"
"Report File:",""

"AutoFile_20240106_184919 - CorrectionData"
"Wavelength nm.","Intensity"
410.0,5009.327
412.0,4974.817
414.0,4963.711
416.0,4991.931
418.0,5044.977
420.0,5137.358
422.0,5301.061
424.0,5507.762
426.0,5685.556
428.0,6016.098
430.0,6384.537
432.0,6765.300
434.0,7278.324
436.0,7858.657
438.0,8513.556
440.0,9339.263
442.0,10230.652
444.0,11181.366
446.0,12534.634
448.0,13811.333
450.0,15287.696
452.0,17105.241
454.0,18981.076
456.0,20905.335
458.0,23458.564
460.0,26152.444
462.0,28773.376
464.0,32002.816
466.0,35259.352
468.0,38562.502
470.0,42240.463
472.0,46006.530
474.0,49589.156
476.0,53977.040
478.0,58095.415
480.0,62113.191
482.0,66481.247
484.0,70663.088
486.0,74403.365
488.0,78606.075
490.0,82712.408
492.0,86301.670
494.0,89928.297
496.0,93332.247
498.0,96533.436
500.0,99519.102
502.0,102532.031
504.0,104895.416
506.0,107127.663
508.0,109168.739
510.0,111063.628
512.0,112740.126
514.0,113964.402
516.0,114759.163
518.0,115479.872
520.0,115672.091
522.0,116001.222
524.0,115936.692
526.0,115518.969
528.0,114579.207
530.0,113981.742
532.0,112822.077
534.0,111281.256
536.0,110064.695
538.0,108254.548
540.0,106449.874
542.0,104821.371
544.0,102538.846
546.0,99954.519
548.0,97733.585
550.0,95417.588
552.0,92712.319
554.0,90497.630
556.0,87756.824
558.0,84768.298
560.0,82181.815
562.0,79807.755
564.0,76666.733
566.0,74099.275
568.0,71462.778
570.0,68541.216
572.0,65872.580
574.0,63446.259
576.0,60813.305
578.0,57962.304
580.0,55766.698
582.0,53384.921
584.0,50741.227
586.0,48446.102
588.0,46258.829
590.0,44031.996
592.0,41689.801
594.0,39846.419
596.0,37730.184
598.0,35595.290
600.0,33939.783
602.0,32186.744
604.0,30317.362
606.0,28674.431
608.0,27305.497
610.0,25683.290
612.0,24327.908
614.0,23064.511
616.0,21951.688
618.0,20785.463
620.0,19838.302
622.0,18981.105
624.0,18016.972
626.0,17060.890
628.0,16224.562
630.0,15374.665
632.0,14477.210
634.0,13745.780
636.0,12953.551
638.0,12193.758
640.0,11603.968
642.0,10983.745
644.0,10373.000
646.0,9901.582
648.0,9433.861
650.0,8974.249
652.0,8469.415
654.0,8121.984
656.0,7715.618
658.0,7420.253
660.0,7071.481
662.0,6792.813
664.0,6571.778
666.0,6384.470
668.0,6288.640
670.0,6183.357

File: 1.2.txt
"Summary"
"[Software Information]"
"Software Name:","LabSolutions RF"
"Version:","1.11"
"[Data Information]"
"Data is:","Modified"
"Sample Name:","SampleName405"
"Sample ID:","SampleID405"
"Option:","Option405"
"Analyst:","BaTiO2:S"
"Date/Time:","01/06/2024 07:00:15 PM"
"Comments"
"[Instrument Information]"
"Instrument Name:","RF-6000"
"Instrument Type:","RF-6000 Series"
"Model (S/N):","RF-6000 (A40245400537SA)"

"Parameter"
"[Measurement]"
"Spectrum Type:","Emission"
"EX Wavelength:","360.0 nm"
"EM Wavelength Start:","410.0 nm"
"EM Wavelength End:","670.0 nm"
"Data Interval:","2.0 nm"
"Scan Speed:","600 nm/min"
"[Instrument]"
"EX Bandwidth:","5.0 nm"
"EM Bandwidth:","5.0 nm"
"Sensitivity:","Auto"
"[Attachment]"
"Attachment:","None"
"[Auto Print]"
"Auto Print:","No"
"Report File:",""

"AutoFile_20240106_185940 - CorrectionData"
"Wavelength nm.","Intensity"
410.0,5961.321
412.0,5918.517
414.0,5910.921
416.0,5970.635
418.0,6016.217
420.0,6145.858
422.0,6312.291
424.0,6541.127
426.0,6810.404
428.0,7204.312
430.0,7650.418
432.0,8089.068
434.0,8716.009
436.0,9411.034
438.0,10200.119
440.0,11145.160
442.0,12177.500
444.0,13324.086
446.0,14824.034
448.0,16343.729
450.0,18013.258
452.0,20093.745
454.0,22284.026
456.0,24517.120
458.0,27343.289
460.0,30368.215
462.0,33255.133
464.0,36918.889
466.0,40417.757
468.0,44178.288
470.0,48137.206
472.0,52324.890
474.0,56269.987
476.0,61125.837
478.0,65578.072
480.0,69863.147
482.0,74681.066
484.0,79035.866
486.0,83267.535
488.0,87643.384
490.0,92066.306
492.0,95845.607
494.0,99639.046
496.0,103475.288
498.0,106652.254
500.0,109753.930
502.0,113125.711
504.0,115595.248
506.0,118101.868
508.0,120153.957
510.0,122172.006
512.0,123802.791
514.0,124949.321
516.0,126042.881
518.0,126738.338
520.0,126863.234
522.0,127058.854
524.0,127035.028
526.0,126398.591
528.0,125692.242
530.0,124874.801
532.0,123400.758
534.0,121848.096
536.0,120298.439
538.0,118203.557
540.0,116264.604
542.0,114511.232
544.0,111954.882
546.0,109018.094
548.0,106710.329
550.0,104300.619
552.0,101199.992
554.0,98751.949
556.0,95709.302
558.0,92593.420
560.0,90008.586
562.0,87021.669
564.0,83862.416
566.0,80950.782
568.0,78211.083
570.0,74864.577
572.0,71886.308
574.0,69361.172
576.0,66504.056
578.0,63358.290
580.0,60886.127
582.0,58404.538
584.0,55524.915
586.0,53034.347
588.0,50606.315
590.0,48240.064
592.0,45712.533
594.0,43662.503
596.0,41411.831
598.0,39004.189
600.0,37162.398
602.0,35299.792
604.0,33191.092
606.0,31475.226
608.0,29908.664
610.0,28286.378
612.0,26716.055
614.0,25515.874
616.0,24149.624
618.0,22891.733
620.0,21924.568
622.0,20951.227
624.0,19946.887
626.0,19009.489
628.0,18119.056
630.0,17117.962
632.0,16102.944
634.0,15364.099
636.0,14423.334
638.0,13709.379
640.0,12986.581
642.0,12371.890
644.0,11679.000
646.0,11155.176
648.0,10646.815
650.0,10136.519
652.0,9637.323
654.0,9226.142
656.0,8759.594
658.0,8354.471
660.0,8038.961
662.0,7797.945
664.0,7540.608
666.0,7387.735
668.0,7214.705
670.0,7173.917